File: Resources/clean_tensile.csv
date_code,thickness,amb_tensile_pre_cure,amb_elongation_pre_cure,amb_tensile_post_cure,amb_elongation_post_cure,hot_tensile_start,hot_elongation_start,hot_tensile_end,hot_elongation_end,amb_elongation_result,amb_tensile_result,hot_tensile_result,hot_elongation_result,overall_result
17-B-1045,65.0,23.9,610.0,26.7,431.0,6.1,130.0,7.6,135.0,1,1,1,1,1
17-B-1049,65.0,23.2,599.0,26.6,436.0,6.8,160.0,6.9,142.0,1,1,1,1,1
17-B-1053,65.0,25.6,668.0,34.6,703.0,11.5,153.0,10.0,116.0,1,1,1,1,1
17-B-1057,65.0,24.7,828.0,23.6,539.0,7.9,153.0,8.8,171.0,1,0,1,1,0
17-B-1061,117.0,19.6,543.0,22.6,530.0,11.9,175.0,8.4,182.0,1,0,1,1,0
17-B-1065,117.0,19.9,454.0,22.3,511.0,10.6,198.0,7.1,200.0,1,0,1,1,0
17-B-1069,117.0,19.8,417.0,22.5,456.0,5.1,270.0,6.3,200.0,1,0,0,1,0
17-B-1073,117.0,19.3,320.0,23.2,539.0,8.7,107.0,8.4,124.0,1,0,1,1,0
17-B-1080,117.0,20.8,359.0,22.7,460.0,12.5,212.0,12.1,236.0,1,0,1,1,0
17-B-1085,117.0,20.4,362.0,23.2,563.0,10.1,208.0,12.3,205.0,1,0,1,1,0
17-B-1089,117.0,20.4,346.0,24.2,488.0,7.5,206.0,5.8,197.0,1,1,0,1,0
17-B-1093,117.0,20.1,524.0,22.9,447.0,5.1,201.0,5.8,193.0,1,0,0,1,0
17-B-1097,117.0,20.1,497.0,22.5,447.0,8.1,177.0,7.4,155.0,1,0,1,1,0
17-B-1101,117.0,20.5,352.0,22.4,494.0,11.3,209.0,8.3,145.0,1,0,1,1,0
17-B-1105,117.0,21.8,455.0,25.5,458.0,14.9,186.0,13.3,188.0,1,1,1,1,1
17-B-1109,117.0,19.8,457.0,23.9,434.0,11.0,165.0,13.7,208.0,1,0,1,1,0
17-B-1113,117.0,21.5,381.0,24.2,476.0,7.6,133.0,10.1,170.0,1,1,1,1,1
17-B-1117,117.0,20.8,378.0,23.2,441.0,6.0,124.0,7.4,212.0,1,0,0,1,0
17-B-1121,117.0,22.4,567.0,23.5,440.0,8.1,173.0,9.4,187.0,1,0,1,1,0
17-B-1192,65.0,27.1,714.0,29.9,466.0,9.3,116.0,9.2,126.0,1,1,1,1,1
17-B-1196,65.0,23.9,683.0,34.1,552.0,7.4,134.0,7.7,135.0,1,1,1,1,1
17-B-1200,65.0,24.5,702.0,25.6,455.0,8.8,124.0,7.7,159.0,1,1,1,1,1
17-B-1205,65.0,23.7,802.0,25.6,418.0,6.8,174.0,7.0,177.0,1,1,1,1,1
17-B-1209,65.0,23.2,791.0,25.0,548.0,6.9,143.0,6.7,141.0,1,1,1,1,1
17-B-1213,65.0,25.4,780.0,32.6,593.0,9.6,130.0,8.7,124.0,1,1,1,1,1
17-B-1217,65.0,24.1,878.0,32.8,598.0,12.1,140.0,12.0,133.0,1,1,1,1,1
17-B-1221,65.0,25.9,996.0,29.0,592.0,8.8,143.0,7.4,120.0,1,1,1,1,1
17-B-1225,117.0,19.6,654.0,22.6,499.0,11.4,210.0,9.8,204.0,1,0,1,1,0
17-B-1229,117.0,20.2,452.0,22.8,483.0,14.7,208.0,8.1,237.0,1,0,1,1,0
17-B-1233,117.0,19.2,672.0,22.6,590.0,13.6,157.0,11.2,185.0,1,0,1,1,0
17-B-1237,117.0,20.8,599.0,22.4,524.0,7.9,199.0,9.8,137.0,1,0,1,1,0
17-B-1241,117.0,20.5,707.0,22.1,460.0,4.3,332.0,8.1,146.0,1,0,0,1,0
17-B-1245,117.0,20.4,619.0,22.8,593.0,7.0,153.0,4.2,386.0,1,0,0,1,0
17-B-1249,117.0,20.4,464.0,21.7,576.0,7.6,171.0,7.7,224.0,1,0,1,1,0
17-B-1259,117.0,20.9,437.0,24.3,464.0,14.8,212.0,4.4,231.0,1,1,0,1,0
17-B-1263,117.0,21.5,457.0,23.7,431.0,5.9,205.0,4.9,224.0,1,0,0,1,0
17-B-1267,117.0,21.3,437.0,23.4,419.0,11.0,189.0,6.9,214.0,1,0,1,1,0
17-B-1271,117.0,20.7,445.0,23.4,425.0,4.3,334.0,6.2,228.0,1,0,0,1,0
17-B-1275,117.0,21.6,424.0,24.5,447.0,10.5,171.0,5.4,237.0,1,1,0,1,0
17-B-1279,117.0,20.9,482.0,24.1,436.0,6.7,146.0,5.9,242.0,1,1,0,1,0
17-B-1383,65.0,25.1,871.0,32.1,539.0,6.1,161.0,6.1,167.0,1,1,1,1,1
17-B-1387,65.0,27.4,707.0,31.2,486.0,11.7,153.0,11.8,152.0,1,1,1,1,1
17-B-1391,65.0,23.7,634.0,35.3,740.0,13.7,151.0,9.1,421.0,1,1,1,1,1
17-B-1395,65.0,29.3,749.0,29.2,516.0,8.8,178.0,11.5,204.0,1,1,1,1,1
17-B-1399,65.0,24.8,602.0,32.1,488.0,7.5,157.0,6.4,176.0,1,1,1,1,1
17-B-1403,65.0,28.7,721.0,34.9,549.0,11.3,146.0,10.4,146.0,1,1,1,1,1
17-B-1407,65.0,26.3,694.0,30.5,705.0,11.0,161.0,13.3,142.0,1,1,1,1,1
17-B-1411,65.0,25.1,714.0,31.3,705.0,9.7,132.0,9.0,140.0,1,1,1,1,1
17-B-1415,65.0,27.0,727.0,25.3,482.0,9.0,206.0,11.2,173.0,1,1,1,1,1
17-B-1419,65.0,29.3,700.0,25.2,474.0,9.8,176.0,8.4,149.0,1,1,1,1,1
17-B-1423,117.0,19.7,482.0,23.4,508.0,10.4,145.0,10.4,147.0,1,0,1,1,0
17-B-1427,117.0,19.5,491.0,23.6,296.0,6.4,200.0,7.4,180.0,1,0,1,1,0
17-B-1431,117.0,19.9,476.0,24.6,490.0,8.2,218.0,7.1,227.0,1,1,1,1,1
17-B-1435,117.0,18.3,660.0,24.0,416.0,7.9,193.0,11.2,192.0,1,0,1,1,0
17-B-1439,117.0,18.7,100.1,23.0,478.0,6.8,160.0,6.7,251.0,1,0,1,1,0
17-B-1443,117.0,19.8,469.0,24.4,437.0,6.1,202.0,8.4,164.0,1,1,1,1,1
17-B-1447,117.0,20.8,331.0,25.4,466.0,6.8,209.0,5.4,234.0,1,1,0,1,0
17-B-1451,117.0,20.3,598.0,26.3,504.0,8.2,163.0,5.6,239.0,1,1,0,1,0
17-B-1455,117.0,19.8,385.0,25.6,480.0,7.5,168.0,7.5,176.0,1,1,1,1,1
17-B-1461,117.0,21.2,405.0,23.5,470.0,8.8,174.0,6.9,197.0,1,0,1,1,0
17-B-1465,117.0,20.5,524.0,25.9,486.0,4.8,229.0,6.6,194.0,1,1,0,1,0
17-B-1473,117.0,20.3,382.0,25.9,466.0,9.1,213.0,7.7,228.0,1,1,1,1,1
17-B-1477,117.0,20.8,444.0,26.0,434.0,8.8,210.0,8.2,216.0,1,1,1,1,1
17-B-1483,117.0,20.7,471.0,24.8,420.0,7.5,254.0,8.5,203.0,1,1,1,1,1
17-B-1572,117.0,20.4,683.0,25.3,510.0,6.7,199.0,6.2,149.0,1,1,1,1,1
17-B-1576,117.0,19.8,471.0,22.7,153.6,6.8,202.0,6.8,202.0,0,0,1,1,0
17-B-1580,117.0,20.4,658.0,23.9,463.0,6.5,225.0,4.2,214.0,1,0,0,1,0
17-B-1584,117.0,20.2,562.0,26.0,481.0,5.5,217.0,4.9,237.0,1,1,0,1,0
17-B-1588,117.0,19.5,366.0,25.8,529.0,5.2,264.0,9.7,217.0,1,1,0,1,0
17-B-1592,117.0,19.1,345.0,26.1,537.0,7.9,196.0,6.1,229.0,1,1,1,1,1
17-B-1596,117.0,20.2,521.0,25.1,525.0,4.9,221.0,7.0,203.0,1,1,0,1,0
17-B-1600,117.0,20.2,383.0,25.8,441.0,7.0,214.0,7.9,220.0,1,1,1,1,1
17-B-1604,117.0,20.9,444.0,23.8,482.0,5.0,239.0,7.0,220.0,1,0,0,1,0
17-B-1608,117.0,19.9,549.0,23.9,475.0,5.3,178.0,6.1,229.0,1,0,0,1,0
17-B-1614,117.0,21.4,498.0,24.1,474.0,4.4,263.0,7.4,202.0,1,1,0,1,0
17-B-1618,117.0,22.7,555.0,24.3,566.0,8.0,217.0,4.9,239.0,1,1,0,1,0
17-B-1622,117.0,22.7,420.0,24.3,452.0,4.1,292.0,3.5,299.0,1,1,0,1,0
17-B-1626,117.0,21.2,532.0,23.8,518.0,11.0,249.0,6.1,168.0,1,0,1,1,0
17-B-1630,117.0,21.0,515.0,23.3,477.0,5.4,233.0,5.9,230.0,1,0,0,1,0
17-B-1634,117.0,19.5,436.0,24.0,520.0,6.6,244.0,10.3,211.0,1,0,1,1,0
17-B-1638,65.0,24.9,637.0,26.1,442.0,7.7,166.0,9.4,174.0,1,1,1,1,1
17-B-1642,65.0,20.5,463.0,25.7,484.0,12.7,155.0,12.1,160.0,1,1,1,1,1
17-B-1646,45.0,23.5,499.0,38.7,505.0,8.5,143.0,7.8,148.0,1,1,1,1,1
17-B-1650,45.0,34.8,706.0,48.3,620.0,12.3,182.0,9.8,130.0,1,1,1,1,1
17-B-1654,45.0,34.0,744.0,35.7,606.0,10.7,170.0,11.7,100.0,1,1,1,0,0
17-B-1756,65.0,28.9,797.0,24.9,641.0,9.3,168.0,11.0,139.0,1,1,1,1,1
17-B-1760,65.0,24.9,710.0,26.8,465.0,8.2,136.0,9.5,146.0,1,1,1,1,1
17-B-1764,65.0,26.8,666.0,32.4,499.0,17.8,166.0,17.4,150.0,1,1,0,1,0
17-B-1768,65.0,22.1,541.0,33.7,523.0,7.2,131.0,9.9,142.0,1,1,1,1,1
17-B-1772,65.0,28.1,669.0,29.7,692.0,8.1,143.0,8.7,134.0,1,1,1,1,1
17-B-1776,65.0,21.3,565.0,32.2,747.0,7.7,174.0,10.5,114.0,1,1,1,1,1
17-B-1780,65.0,25.8,661.0,29.2,645.0,12.3,146.0,10.2,125.0,1,1,1,1,1
17-B-1784,65.0,27.9,728.0,28.1,504.0,15.8,132.0,11.1,128.9,1,1,1,1,1
17-B-1821,65.0,22.9,605.0,32.4,658.0,13.6,150.8,9.6,144.3,1,1,1,1,1
17-B-1825,65.0,25.3,673.0,33.6,634.0,8.6,173.6,8.2,154.7,1,1,1,1,1
17-B-1829,65.0,28.0,685.0,31.7,526.0,7.0,151.8,6.5,143.2,1,1,1,1,1
17-B-1833,65.0,26.1,692.0,29.4,488.0,14.0,139.0,11.6,138.8,1,1,1,1,1
17-B-1837,65.0,26.0,705.0,25.5,434.0,7.8,147.0,7.4,124.0,1,1,1,1,1
17-B-1841,30.0,24.5,878.0,36.8,526.0,8.9,167.0,7.7,160.0,1,1,1,1,1
17-B-1845,65.0,20.6,752.0,26.8,647.0,13.3,179.0,14.0,188.0,1,1,1,1,1
17-B-1849,65.0,25.4,935.0,29.5,671.0,13.4,146.0,12.1,164.0,1,1,1,1,1
17-B-1853,65.0,24.4,972.0,26.4,576.0,11.3,188.0,12.4,150.0,1,1,1,1,1
17-B-1857,65.0,23.3,609.0,25.3,396.0,7.7,182.0,17.0,159.0,1,1,0,1,0
17-B-1879,117.0,20.1,485.0,25.8,429.0,9.4,225.0,8.0,286.0,1,1,1,1,1
17-B-1883,117.0,20.9,405.0,25.6,441.0,9.3,197.0,6.7,263.0,1,1,1,1,1
17-B-1887,117.0,20.1,305.0,23.0,598.0,11.2,180.0,8.2,216.0,1,0,1,1,0
17-B-1892,117.0,21.2,474.0,24.4,406.0,9.8,196.0,13.9,156.0,1,1,1,1,1
17-B-1896,117.0,21.5,517.0,24.5,509.0,7.6,415.0,16.2,328.0,1,1,0,1,0
17-B-1900,117.0,21.4,296.0,26.3,426.0,6.6,189.0,6.3,136.0,1,1,1,1,1
17-B-1904,117.0,20.7,385.0,25.9,466.0,8.5,346.0,10.4,186.0,1,1,1,1,1
17-B-1910,117.0,19.7,582.0,26.0,460.0,5.1,196.0,4.5,189.0,1,1,0,1,0
17-B-1914,117.0,20.2,483.0,26.3,471.0,4.5,217.0,8.0,186.0,1,1,0,1,0
17-B-1918,117.0,20.3,609.0,25.0,447.0,6.5,182.0,10.6,211.0,1,1,1,1,1
17-B-1922,117.0,20.6,717.0,23.5,505.0,8.2,219.0,7.8,192.0,1,0,1,1,0
17-B-1926,117.0,20.2,409.0,23.9,482.0,7.3,204.0,6.9,258.0,1,0,1,1,0
17-B-1930,117.0,21.2,314.0,23.9,437.0,5.7,222.0,7.7,210.0,1,0,0,1,0
17-B-1934,117.0,20.8,421.0,23.7,510.0,6.3,227.0,7.4,199.0,1,0,1,1,0
17-B-2127,65.0,30.5,755.0,32.2,543.0,11.9,146.0,8.1,141.0,1,1,1,1,1
17-B-2131,65.0,26.6,695.0,32.4,590.0,7.9,158.0,8.5,155.0,1,1,1,1,1
17-B-2136,65.0,29.5,654.0,26.1,491.0,7.6,151.0,6.0,177.0,1,1,0,1,0
17-B-2141,65.0,25.5,637.0,26.1,549.0,7.3,161.0,8.6,180.0,1,1,1,1,1
17-B-2145,65.0,29.6,375.0,30.0,608.0,15.4,170.0,16.4,160.0,1,1,0,1,0
17-B-2187,117.0,21.0,296.0,25.0,410.0,5.1,216.0,7.8,185.0,1,1,0,1,0
17-B-2191,117.0,20.4,383.0,24.6,443.0,6.6,189.0,5.0,145.0,1,1,0,1,0
17-B-2195,117.0,21.1,505.0,24.3,445.0,5.8,213.0,4.9,176.0,1,1,0,1,0
17-B-2199,117.0,20.4,488.0,26.3,482.0,7.5,179.0,10.0,182.0,1,1,1,1,1
17-B-2203,117.0,21.3,504.0,25.0,431.0,9.5,196.0,9.2,128.0,1,1,1,1,1
17-B-2207,117.0,20.2,459.0,25.6,465.0,4.9,225.0,9.5,213.0,1,1,0,1,0
17-B-2211,117.0,20.7,453.0,24.4,524.0,5.0,182.0,5.3,169.0,1,1,0,1,0
17-B-2215,117.0,21.7,481.0,25.8,492.0,8.7,193.0,8.5,226.0,1,1,1,1,1
17-B-2219,117.0,22.0,469.0,24.4,457.0,5.3,191.0,6.6,198.0,1,1,0,1,0
17-B-2223,117.0,21.1,558.0,24.1,477.0,8.1,209.0,7.6,176.0,1,1,1,1,1
17-B-2227,117.0,19.75,500.0,23.0,492.0,6.1,214.0,5.3,165.0,1,0,0,1,0
17-B-2231,117.0,19.5,425.0,25.2,444.0,6.6,133.0,7.4,192.0,1,1,1,1,1
17-B-2235,117.0,20.4,508.0,25.0,475.0,10.4,213.0,8.4,220.0,1,1,1,1,1
17-B-2239,117.0,19.4,575.5,24.9,482.0,10.3,226.0,7.7,214.0,1,1,1,1,1
17-B-2243,117.0,20.1,412.0,23.1,420.0,5.4,220.0,4.9,245.0,1,0,0,1,0
17-B-2247,117.0,20.4,427.0,24.2,426.0,7.0,222.0,7.8,205.0,1,1,1,1,1
17-B-2261,45.0,31.5,708.0,40.2,573.0,15.4,123.0,14.7,122.0,1,1,1,1,1
17-B-2265,45.0,29.8,690.0,40.4,569.0,10.3,155.0,8.6,189.0,1,1,1,1,1
17-B-2269,45.0,33.5,754.0,40.0,586.0,15.3,128.0,17.2,125.0,1,1,0,1,0
17-B-2273,65.0,23.3,665.0,29.0,458.0,8.7,217.0,7.5,147.0,1,1,1,1,1
17-B-2277,65.0,23.3,649.0,34.4,514.0,8.7,195.0,10.2,212.0,1,1,1,1,1
17-B-2281,65.0,28.4,787.0,37.4,577.0,10.0,152.0,9.9,137.0,1,1,1,1,1
17-B-2285,65.0,26.3,639.0,33.8,762.0,12.6,132.9,12.0,155.0,1,1,1,1,1
17-B-2373,117.0,21.1,291.0,25.8,437.0,9.7,164.0,10.2,152.0,1,1,1,1,1
17-B-2377,117.0,22.1,404.0,26.8,423.0,10.6,216.0,9.7,217.0,1,1,1,1,1
17-B-2381,117.0,21.1,338.0,26.0,444.0,8.6,174.0,5.1,249.0,1,1,0,1,0
17-B-2385,117.0,20.2,302.0,26.0,476.0,9.3,239.0,9.3,242.0,1,1,1,1,1
17-B-2389,117.0,19.5,404.0,25.4,436.0,5.5,249.0,6.1,232.0,1,1,0,1,0
17-B-2393,117.0,21.3,812.0,25.4,494.0,6.6,238.0,9.7,233.0,1,1,1,1,1
17-B-2397,117.0,20.3,391.0,25.6,529.0,9.5,210.0,4.5,305.0,1,1,0,1,0
17-B-2401,117.0,21.1,403.0,24.2,669.0,9.4,184.0,8.1,166.0,1,1,1,1,1
17-B-2405,117.0,18.9,267.0,24.6,454.0,2.6,321.0,3.4,370.0,1,1,0,1,0
17-B-2409,117.0,21.0,599.0,25.6,453.0,13.1,168.0,11.1,193.0,1,1,1,1,1
17-B-2413,117.0,19.8,475.0,25.1,408.0,8.1,216.0,5.8,285.0,1,1,0,1,0
17-B-2417,117.0,20.5,422.0,25.0,427.0,8.8,204.0,8.4,224.0,1,1,1,1,1
17-B-2421,117.0,21.4,544.0,25.1,563.0,9.9,210.0,11.6,229.0,1,1,1,1,1
17-B-2425,117.0,22.7,418.0,26.4,492.0,9.0,185.0,11.2,231.0,1,1,1,1,1
17-B-2429,117.0,21.9,442.0,25.2,496.0,6.3,204.0,4.6,234.0,1,1,0,1,0
17-B-2433,117.0,21.6,538.0,23.9,451.0,4.2,350.0,4.6,234.0,1,0,0,1,0
17-B-2437,45.0,30.2,711.0,36.8,701.0,17.7,129.0,12.7,173.0,1,1,0,1,0
17-B-2441,45.0,29.7,992.0,28.7,664.0,12.4,170.0,12.8,177.0,1,1,1,1,1
17-B-2445,45.0,30.1,867.0,34.2,521.0,7.2,190.0,10.0,162.0,1,1,1,1,1
17-B-2449,45.0,34.0,843.0,34.9,534.0,18.8,138.0,18.9,130.0,1,1,0,1,0
17-B-2507,117.0,20.1,310.0,25.5,487.0,6.5,219.0,4.3,235.0,1,1,0,1,0
17-B-2511,117.0,21.1,589.0,25.7,676.0,8.5,218.0,9.4,231.0,1,1,1,1,1
17-B-2515,117.0,21.8,550.0,24.2,485.0,4.4,356.0,9.0,220.0,1,1,0,1,0
17-B-2519,117.0,22.5,532.0,24.3,492.0,7.0,225.0,8.8,237.0,1,1,1,1,1
17-B-2523,117.0,20.3,457.0,23.8,470.0,4.6,214.0,4.6,204.0,1,0,0,1,0
17-B-2527,117.0,20.9,577.0,22.8,603.0,11.1,176.0,9.6,194.0,1,0,1,1,0
17-B-2531,117.0,21.6,489.0,25.0,475.0,5.4,207.0,12.0,149.0,1,1,0,1,0
17-B-2535,117.0,20.4,306.0,23.4,464.0,10.3,212.0,7.1,210.0,1,0,1,1,0
17-B-2539,117.0,22.0,499.0,24.5,649.0,7.4,213.0,7.6,210.0,1,1,1,1,1
17-B-2543,117.0,21.6,525.0,22.9,531.0,7.9,212.0,7.0,207.0,1,0,1,1,0
17-B-2547,117.0,20.9,328.0,23.1,530.0,5.0,185.0,4.6,212.0,1,0,0,1,0
17-B-2551,117.0,19.4,460.0,24.3,424.0,7.1,222.0,4.2,265.0,1,1,0,1,0
17-B-2555,117.0,18.7,474.0,24.4,562.0,4.7,216.0,7.7,177.0,1,1,0,1,0
17-B-2559,117.0,19.12,412.0,24.4,495.0,4.4,378.0,6.4,188.0,1,1,0,1,0
17-B-2563,117.0,21.3,479.0,24.8,493.0,9.7,207.0,4.2,231.0,1,1,0,1,0
17-B-2567,117.0,21.3,478.0,24.6,489.0,4.5,232.0,6.4,189.0,1,1,0,1,0
17-B-2571,72.0,27.1,643.0,36.9,580.0,10.5,141.0,10.3,152.0,1,1,1,1,1
17-B-2575,72.0,29.6,719.0,30.4,524.0,7.1,185.0,7.3,188.0,1,1,1,1,1
17-B-2579,72.0,25.0,649.0,38.3,620.0,13.1,159.0,10.1,153.0,1,1,1,1,1
17-B-2583,72.0,29.6,736.0,27.4,456.0,6.9,216.0,15.5,134.0,1,1,1,1,1
17-B-2587,65.0,31.2,917.0,34.5,537.0,10.7,135.0,8.6,131.0,1,1,1,1,1
17-B-2591,65.0,32.3,886.0,34.0,556.0,11.4,139.0,11.2,142.0,1,1,1,1,1
17-B-2595,65.0,26.9,766.0,32.8,524.0,8.2,128.0,7.2,139.0,1,1,1,1,1
17-B-2599,65.0,26.3,825.0,33.5,574.0,9.7,149.0,6.2,152.0,1,1,1,1,1
17-B-2798,117.0,20.0,615.0,25.5,509.0,6.1,244.0,5.3,228.0,1,1,0,1,0
17-B-2802,117.0,22.0,296.0,24.0,458.0,4.8,242.0,7.0,205.0,1,0,0,1,0
17-B-2806,117.0,22.2,287.0,23.3,511.0,6.8,247.0,8.5,214.0,1,0,1,1,0
17-B-2810,117.0,20.4,317.0,22.7,576.0,4.1,251.0,7.3,211.0,1,0,0,1,0
17-B-2814,117.0,19.4,261.0,22.4,463.0,10.6,186.0,8.7,220.0,1,0,1,1,0
17-B-2818,117.0,19.7,386.0,22.7,477.0,6.6,204.0,7.7,204.0,1,0,1,1,0
17-B-2822,117.0,20.3,302.0,24.7,480.0,6.3,219.0,8.1,213.0,1,1,1,1,1
17-B-2826,117.0,20.9,390.0,25.3,430.0,9.0,223.0,8.2,196.0,1,1,1,1,1
17-B-2830,117.0,21.6,356.0,23.3,226.0,4.0,201.5,5.5,218.0,0,0,0,1,0
17-B-2834,117.0,21.6,586.0,24.9,530.0,7.7,203.0,10.3,200.0,1,1,1,1,1
17-B-2838,117.0,21.9,355.0,23.6,407.0,7.2,157.0,4.2,218.0,1,0,0,1,0
17-B-2842,117.0,21.8,481.0,21.8,502.0,4.5,188.0,7.6,196.0,1,0,0,1,0
17-B-2846,117.0,21.5,316.0,23.2,512.0,6.3,182.0,5.4,209.0,1,0,0,1,0
17-B-2850,117.0,23.0,461.0,23.6,475.0,5.4,196.0,5.2,230.0,1,0,0,1,0
17-B-2854,117.0,22.6,367.0,25.3,417.0,6.4,199.0,6.8,209.0,1,1,1,1,1
17-B-2858,117.0,22.7,419.0,23.1,376.0,7.9,201.0,9.4,206.0,1,0,1,1,0
17-B-2862,117.0,22.3,498.0,24.5,491.0,7.1,206.0,6.0,218.0,1,1,0,1,0
17-B-2866,117.0,21.8,533.0,24.0,434.0,9.4,194.0,6.1,241.0,1,0,1,1,0
17-B-2870,117.0,21.3,399.0,23.7,444.0,5.7,220.0,6.7,217.0,1,0,0,1,0
17-B-2874,72.0,24.3,557.0,27.2,431.0,9.4,153.0,6.7,187.0,1,1,1,1,1
17-B-2878,72.0,21.8,755.0,25.2,473.0,9.7,157.0,11.0,162.0,1,1,1,1,1
17-B-2882,72.0,20.9,365.0,25.5,505.0,8.4,202.0,9.2,170.0,1,1,1,1,1
17-B-2886,72.0,21.3,554.0,27.1,432.0,10.8,188.0,10.5,159.0,1,1,1,1,1
17-B-2890,65.0,32.4,757.0,31.6,508.0,12.3,154.0,8.1,171.0,1,1,1,1,1
17-B-2894,65.0,26.3,615.0,30.4,518.0,10.6,170.0,8.9,142.0,1,1,1,1,1
17-B-2898,65.0,29.8,712.0,28.8,484.0,8.7,170.0,9.0,196.0,1,1,1,1,1
17-B-2902,65.0,28.1,703.0,31.6,739.0,11.4,140.0,8.1,136.0,1,1,1,1,1
17-B-2973,117.0,20.8,437.0,23.5,466.0,4.6,234.0,4.8,293.0,1,0,0,1,0
17-B-2977,117.0,22.6,408.0,25.4,242.0,6.7,225.0,5.4,252.0,0,1,0,1,0
17-B-2981,117.0,21.9,341.0,22.8,286.0,4.3,266.0,5.4,265.0,1,0,0,1,0
17-B-2985,117.0,19.3,382.0,24.8,416.0,6.1,225.0,6.1,222.0,1,1,1,1,1
17-B-2989,117.0,21.7,578.0,25.9,506.0,5.8,230.0,6.2,228.0,1,1,0,1,0
17-B-2993,117.0,22.2,495.0,25.7,505.0,6.8,187.0,6.9,229.0,1,1,1,1,1
17-B-2997,117.0,21.3,685.0,24.3,467.0,6.7,205.0,9.7,212.0,1,1,1,1,1
17-B-3001,117.0,20.3,518.0,23.6,451.0,6.5,257.0,5.0,256.0,1,0,0,1,0
17-B-3005,117.0,21.4,396.0,25.9,488.0,6.5,232.0,7.8,216.0,1,1,1,1,1
17-B-3009,117.0,21.6,414.0,23.7,530.0,8.2,200.0,7.0,236.0,1,0,1,1,0
17-B-3013,117.0,22.0,686.0,25.8,461.0,6.3,238.0,7.2,254.0,1,1,1,1,1
17-B-3017,117.0,19.8,523.0,24.4,449.0,6.6,191.0,5.0,262.0,1,1,0,1,0
17-B-3021,117.0,21.4,482.0,24.7,427.0,6.1,236.0,6.2,199.0,1,1,1,1,1
17-B-3025,117.0,21.5,359.0,25.1,443.0,6.7,266.0,5.7,226.0,1,1,0,1,0
17-B-3029,117.0,20.7,471.0,24.4,476.0,6.3,225.0,6.1,210.0,1,1,1,1,1
17-B-3033,117.0,21.3,363.0,23.6,420.0,6.4,217.0,4.8,211.0,1,0,0,1,0
17-B-3037,117.0,20.9,603.0,24.9,495.0,5.8,261.0,8.2,230.0,1,1,0,1,0
17-B-3041,117.0,20.2,561.0,25.4,512.0,5.4,175.0,7.5,233.0,1,1,0,1,0
17-B-3045,117.0,22.5,583.0,26.1,569.0,6.9,222.0,7.1,238.0,1,1,1,1,1
18-B-16,117.0,21.0,445.0,24.9,462.0,6.2,228.0,6.8,218.0,1,1,1,1,1
18-B-20,117.0,22.2,275.0,25.0,471.0,7.0,210.0,5.4,220.0,1,1,0,1,0
18-B-24,117.0,21.7,433.0,24.1,429.0,4.8,224.0,6.0,193.0,1,1,0,1,0
18-B-28,117.0,21.1,598.0,22.9,524.0,5.5,230.0,7.0,198.0,1,0,0,1,0
18-B-32,117.0,21.4,398.0,24.0,496.0,5.7,228.0,6.6,200.0,1,0,0,1,0
18-B-36,117.0,20.7,270.0,19.1,236.0,5.5,232.0,5.4,214.0,0,0,0,1,0
18-B-40,117.0,20.2,212.0,23.7,310.0,6.0,212.0,5.8,205.0,1,0,0,1,0
18-B-44,72.0,27.5,642.0,29.5,748.0,8.5,133.0,7.9,146.0,1,1,1,1,1
18-B-48,72.0,29.6,725.0,27.1,563.0,7.2,177.0,6.7,168.0,1,1,1,1,1
18-B-52,72.0,29.4,704.0,27.1,567.0,7.8,146.0,9.2,156.0,1,1,1,1,1
18-B-56,72.0,24.7,616.0,25.7,687.0,9.2,159.0,7.8,141.0,1,1,1,1,1
18-B-60,117.0,20.4,457.0,25.0,495.0,5.7,220.0,6.8,196.0,1,1,0,1,0
18-B-64,117.0,22.0,602.0,25.5,442.0,8.5,216.0,7.2,179.0,1,1,1,1,1
18-B-68,117.0,20.9,731.0,24.8,419.0,6.6,190.0,9.9,226.0,1,1,1,1,1
18-B-72,117.0,21.7,614.0,24.1,478.0,5.9,174.0,8.4,234.0,1,1,0,1,0
18-B-76,117.0,21.8,346.0,25.3,445.0,4.7,240.0,5.5,201.0,1,1,0,1,0
18-B-80,117.0,21.7,401.0,24.4,524.0,6.1,178.0,8.5,177.0,1,1,1,1,1
18-B-84,117.0,22.2,497.0,25.0,469.0,7.0,195.0,7.1,195.0,1,1,1,1,1
18-B-88,117.0,21.1,430.0,25.3,467.0,6.9,220.0,6.8,197.0,1,1,1,1,1
18-B-92,117.0,19.2,370.0,25.1,331.0,5.3,190.0,6.8,157.0,1,1,0,1,0
18-B-96,117.0,22.3,157.0,24.6,451.0,5.3,168.0,4.6,181.0,1,1,0,1,0
18-B-100,117.0,20.9,295.0,23.4,424.0,7.0,231.0,5.5,205.0,1,0,0,1,0
18-B-104,117.0,21.1,537.0,23.4,429.0,6.1,212.0,5.9,178.0,1,0,0,1,0
18-B-108,117.0,21.5,513.0,24.4,459.0,6.7,214.0,7.0,205.0,1,1,1,1,1
18-B-112,117.0,20.5,480.0,24.5,434.0,6.0,196.0,6.0,197.0,1,1,0,1,0
18-B-116,117.0,20.2,367.0,24.9,513.0,7.8,186.0,4.8,197.0,1,1,0,1,0
18-B-120,117.0,19.6,331.0,23.8,433.0,5.7,197.0,6.9,191.0,1,0,0,1,0
18-B-124,117.0,20.9,352.0,23.8,375.0,5.9,187.0,9.1,196.0,1,0,0,1,0
18-B-128,117.0,20.3,407.0,23.6,287.0,6.6,198.0,6.4,216.0,1,0,1,1,0
18-B-132,117.0,22.6,395.0,24.0,342.0,5.7,191.0,6.5,167.0,1,0,0,1,0
18-B-136,117.0,22.3,268.0,23.3,404.0,6.7,226.0,7.7,184.0,1,0,1,1,0
18-B-239,90.0,20.7,376.0,21.1,628.0,9.9,215.0,6.4,224.0,1,0,1,1,0
18-B-243,90.0,21.9,468.0,21.7,578.0,9.3,200.0,9.8,204.0,1,0,1,1,0
18-B-247,90.0,21.0,552.0,20.0,476.0,8.9,213.0,9.9,210.0,1,0,1,1,0
18-B-251,117.0,20.5,650.0,22.5,491.0,8.7,188.0,7.6,204.0,1,0,1,1,0
18-B-255,117.0,20.6,543.0,22.9,527.0,7.0,229.0,7.1,224.0,1,0,1,1,0
18-B-259,117.0,19.5,484.0,22.6,508.0,8.6,213.0,6.7,249.0,1,0,1,1,0
18-B-263,117.0,23.1,497.0,22.2,457.0,6.1,228.0,6.1,214.0,1,0,1,1,0
18-B-267,117.0,21.0,462.0,21.8,468.0,6.4,220.0,6.3,211.0,1,0,1,1,0
18-B-271,117.0,21.7,276.0,24.3,444.0,6.7,215.0,7.8,202.0,1,1,1,1,1
18-B-275,117.0,20.4,318.0,22.3,470.0,5.7,226.0,7.8,201.0,1,0,0,1,0
18-B-279,117.0,21.1,446.0,23.5,513.0,5.4,188.0,7.1,202.0,1,0,0,1,0
18-B-283,117.0,22.2,538.0,24.3,498.0,6.5,195.0,8.1,219.0,1,1,1,1,1
18-B-287,117.0,21.1,409.0,24.3,555.0,6.3,202.0,7.2,225.0,1,1,1,1,1
18-B-291,117.0,20.1,454.0,24.7,458.0,6.4,241.0,7.9,214.0,1,1,1,1,1
18-B-295,117.0,21.7,602.0,23.1,482.0,6.0,187.0,6.9,229.0,1,0,0,1,0
18-B-299,117.0,22.5,487.0,25.5,413.0,6.6,231.0,7.0,258.0,1,1,1,1,1
18-B-303,117.0,21.8,311.0,23.3,474.0,6.8,203.0,7.3,210.0,1,0,1,1,0
18-B-309,117.0,20.6,583.0,24.0,468.0,7.3,219.0,7.7,219.0,1,0,1,1,0
18-B-313,117.0,22.0,419.0,23.8,501.0,7.3,248.0,5.1,222.0,1,0,0,1,0
18-B-317,117.0,21.7,454.0,23.1,442.0,5.8,237.0,4.8,241.0,1,0,0,1,0
18-B-321,117.0,20.2,431.0,22.7,442.0,4.5,288.0,5.3,221.0,1,0,0,1,0
18-B-465,117.0,19.5,469.0,23.5,427.0,7.0,191.0,7.3,208.0,1,0,1,1,0
18-B-469,117.0,19.2,393.0,24.7,454.0,6.3,184.0,5.4,248.0,1,1,0,1,0
18-B-473,117.0,18.7,508.0,21.7,478.0,6.9,272.0,7.2,233.0,1,0,1,1,0
18-B-477,117.0,19.0,367.0,22.9,410.0,7.2,256.0,6.6,248.0,1,0,1,1,0
18-B-481,117.0,20.2,307.0,23.0,456.0,7.7,218.0,6.7,198.0,1,0,1,1,0
18-B-485,117.0,21.0,283.0,23.4,512.0,7.4,212.0,7.8,212.0,1,0,1,1,0
18-B-489,117.0,19.5,325.0,22.7,469.0,7.2,224.0,5.6,232.0,1,0,0,1,0
18-B-493,117.0,19.5,456.0,22.5,452.0,6.8,228.0,6.2,213.0,1,0,1,1,0
18-B-497,45.0,23.5,666.0,38.8,684.0,10.1,167.0,7.5,209.0,1,1,1,1,1
18-B-501,45.0,31.8,776.0,34.4,623.0,11.5,143.0,8.4,186.0,1,1,1,1,1
18-B-505,45.0,30.0,753.0,39.9,799.0,12.2,138.0,11.7,131.0,1,1,1,1,1
18-B-509,45.0,28.0,722.0,37.0,728.0,11.6,138.0,11.1,122.0,1,1,1,1,1
18-B-513,45.0,31.4,924.0,36.4,771.0,12.8,118.0,12.9,126.0,1,1,1,1,1
18-B-517,65.0,25.4,859.0,28.6,468.0,10.5,170.0,6.2,189.0,1,1,1,1,1
18-B-521,65.0,28.4,880.0,33.8,603.0,10.0,149.0,10.1,142.0,1,1,1,1,1
18-B-525,65.0,27.2,870.0,29.6,462.0,10.9,148.0,9.5,170.0,1,1,1,1,1
18-B-529,65.0,27.8,750.0,25.2,444.0,7.4,187.0,8.4,173.0,1,1,1,1,1
18-B-533,65.0,23.9,625.0,29.3,476.0,10.3,144.0,10.8,155.0,1,1,1,1,1
18-B-537,65.0,20.1,614.0,25.7,584.0,9.5,172.0,11.6,156.0,1,1,1,1,1
18-B-681,65.0,29.7,772.0,33.7,686.0,9.6,162.0,9.5,152.0,1,1,1,1,1
18-B-685,65.0,29.3,874.0,28.8,598.0,9.2,137.0,11.3,168.0,1,1,1,1,1
18-B-689,65.0,27.8,790.0,32.5,666.0,9.0,136.0,9.6,157.0,1,1,1,1,1
18-B-693,65.0,26.8,879.0,30.6,606.0,10.5,134.0,8.9,138.0,1,1,1,1,1
18-B-697,65.0,18.7,657.0,29.0,689.0,8.1,160.0,11.3,168.0,1,1,1,1,1
18-B-701,65.0,28.1,756.0,25.9,652.0,12.8,160.0,11.7,137.0,1,1,1,1,1
18-B-705,65.0,22.7,648.0,24.3,513.0,9.6,171.0,10.8,153.0,1,1,1,1,1
18-B-709,65.0,28.4,761.0,33.3,640.0,8.6,173.0,9.3,156.0,1,1,1,1,1
18-B-713,65.0,27.3,769.0,32.0,665.0,9.4,173.0,9.2,154.0,1,1,1,1,1
18-B-717,65.0,27.4,713.0,32.2,592.0,10.3,161.0,10.9,148.0,1,1,1,1,1
18-B-721,65.0,27.5,761.0,29.4,655.0,11.6,164.0,8.5,160.0,1,1,1,1,1
18-B-725,65.0,26.8,753.0,24.7,612.0,10.7,166.0,8.3,165.0,1,1,1,1,1
18-B-866,45.0,21.2,718.0,33.6,573.0,11.2,150.0,7.4,202.0,1,1,1,1,1
18-B-870,65.0,20.1,575.0,28.2,523.0,10.5,159.0,8.9,170.0,1,1,1,1,1
18-B-874,65.0,24.6,685.0,28.2,532.0,7.9,181.0,8.0,177.0,1,1,1,1,1
18-B-878,65.0,22.9,587.0,30.2,589.0,9.7,168.0,9.2,185.0,1,1,1,1,1
18-B-882,65.0,23.7,676.0,27.6,496.0,9.3,161.0,9.0,162.0,1,1,1,1,1
18-B-886,65.0,18.35,505.0,24.0,452.0,7.8,162.0,8.5,179.0,1,0,1,1,0
18-B-890,65.0,18.7,531.0,27.9,486.0,9.1,156.0,9.7,132.0,1,1,1,1,1
18-B-894,117.0,19.04,522.0,22.4,460.0,7.3,205.0,8.1,200.0,1,0,1,1,0
18-B-898,117.0,19.4,436.0,22.6,444.0,6.8,214.0,8.1,229.0,1,0,1,1,0
18-B-902,117.0,20.2,359.0,22.0,433.0,8.0,250.0,10.3,212.0,1,0,1,1,0
18-B-906,117.0,19.35,483.0,22.3,437.0,8.5,231.0,9.0,199.0,1,0,1,1,0
18-B-910,117.0,19.17,66.7,22.9,408.0,7.8,242.0,7.6,242.0,1,0,1,1,0
18-B-914,117.0,19.67,265.0,23.3,451.0,8.4,235.0,7.4,255.0,1,0,1,1,0
18-B-918,117.0,19.2,546.0,22.2,427.0,5.0,232.0,7.2,176.0,1,0,0,1,0
18-B-922,117.0,19.8,325.0,22.5,410.0,6.1,222.0,7.2,230.0,1,0,1,1,0
18-B-926,117.0,19.06,496.0,23.6,444.0,8.4,252.0,8.1,257.0,1,0,1,1,0
18-B-930,117.0,19.9,324.0,23.3,411.0,9.0,260.0,8.8,257.0,1,0,1,1,0
18-B-934,117.0,19.6,300.0,23.6,407.0,8.4,291.0,8.1,252.0,1,0,1,1,0
18-B-938,117.0,19.8,209.0,22.6,413.0,6.3,236.0,6.5,225.0,1,0,1,1,0
18-B-1079,117.0,20.2,503.0,22.1,427.0,7.4,171.0,7.4,174.0,1,0,1,1,0
18-B-1083,117.0,18.81,388.0,22.7,408.0,5.9,186.0,6.4,188.0,1,0,0,1,0
18-B-1087,117.0,19.27,357.0,22.8,414.0,8.1,221.0,8.0,244.0,1,0,1,1,0
18-B-1091,117.0,18.1,355.0,22.1,462.0,6.8,247.4,7.2,191.2,1,0,1,1,0
18-B-1095,117.0,19.65,182.1,21.95,462.0,6.6,152.7,4.6,179.0,1,0,0,1,0
18-B-1099,117.0,19.79,182.5,24.4,488.0,6.4,232.0,7.6,233.0,1,1,1,1,1
18-B-1103,117.0,19.36,355.0,22.4,439.0,6.2,213.0,6.5,227.0,1,0,1,1,0
18-B-1107,117.0,20.3,414.0,22.0,488.0,7.9,217.0,6.6,222.0,1,0,1,1,0
18-B-1111,117.0,19.49,459.0,23.2,426.0,7.8,251.0,9.6,253.0,1,0,1,1,0
18-B-1115,117.0,20.4,439.0,22.2,450.0,8.8,250.0,9.7,242.0,1,0,1,1,0
18-B-1119,117.0,20.1,521.0,25.2,422.0,9.4,240.0,8.2,225.0,1,1,1,1,1
18-B-1123,117.0,20.7,396.0,24.1,442.0,8.2,245.0,8.8,244.0,1,1,1,1,1
18-B-1127,117.0,19.63,462.0,24.6,472.0,6.7,265.0,6.1,252.0,1,1,1,1,1
18-B-1131,117.0,19.8,473.0,24.3,436.0,7.5,271.0,8.9,232.0,1,1,1,1,1
18-B-1135,65.0,28.1,747.0,27.9,494.0,7.8,198.0,7.6,241.0,1,1,1,1,1
18-B-1139,65.0,19.51,494.0,30.3,549.0,12.4,149.0,9.3,197.0,1,1,1,1,1
18-B-1143,65.0,25.6,640.0,30.7,542.0,14.1,137.0,12.6,152.0,1,1,1,1,1
18-B-1147,65.0,28.4,742.0,32.0,554.0,11.7,154.0,10.2,159.0,1,1,1,1,1
18-B-1236,117.0,19.9,454.0,22.4,478.0,7.5,186.0,6.7,259.0,1,0,1,1,0
18-B-1240,117.0,20.2,530.0,22.5,462.0,6.9,237.0,6.9,223.0,1,0,1,1,0
18-B-1244,117.0,19.7,483.0,22.8,463.0,7.6,200.0,7.4,232.0,1,0,1,1,0
18-B-1248,117.0,19.5,321.0,22.7,470.0,8.2,221.0,10.1,210.0,1,0,1,1,0
18-B-1252,117.0,19.9,328.0,23.6,431.0,9.7,221.0,7.8,226.0,1,0,1,1,0
18-B-1256,117.0,18.97,596.0,21.6,458.0,9.0,230.0,9.0,232.0,1,0,1,1,0
18-B-1260,117.0,19.98,474.0,22.3,444.0,7.2,230.0,9.1,207.0,1,0,1,1,0
18-B-1264,117.0,53.9,505.0,23.1,458.0,6.6,216.0,7.4,219.0,1,0,1,1,0
18-B-1268,117.0,20.6,493.0,24.1,460.0,7.5,225.0,7.7,232.0,1,1,1,1,1
18-B-1272,117.0,21.5,479.0,24.0,475.0,8.2,195.0,8.3,236.0,1,0,1,1,0
18-B-1276,117.0,19.25,404.0,23.2,425.0,7.9,240.0,8.1,209.0,1,0,1,1,0
18-B-1280,117.0,20.1,367.0,24.0,448.0,6.4,232.0,7.4,218.0,1,0,1,1,0
18-B-1284,117.0,19.5,543.0,22.4,436.0,8.3,213.0,9.1,208.0,1,0,1,1,0
18-B-1288,117.0,20.4,468.0,24.1,468.0,6.2,213.0,6.7,208.0,1,1,1,1,1
18-B-1292,117.0,21.0,366.0,21.9,453.0,7.9,225.0,8.6,210.0,1,0,1,1,0
18-B-1296,117.0,20.3,428.0,23.0,446.0,7.7,221.0,8.5,209.0,1,0,1,1,0
18-B-1300,117.0,19.0,443.0,22.2,496.0,6.1,215.0,6.5,206.0,1,0,1,1,0
18-B-1304,117.0,21.9,433.0,22.5,492.0,7.3,223.0,6.8,216.0,1,0,1,1,0
18-B-1308,117.0,20.7,512.0,24.7,441.0,7.2,216.0,7.1,275.0,1,1,1,1,1
18-B-1312,117.0,18.7,440.0,22.9,434.0,8.4,199.0,7.4,237.0,1,0,1,1,0
18-B-1316,65.0,32.4,786.0,26.7,452.0,12.1,153.0,13.1,136.0,1,1,1,1,1
18-B-1320,65.0,33.7,796.0,28.2,359.0,9.9,143.0,11.5,135.0,1,1,1,1,1
18-B-1324,65.0,30.5,875.0,29.3,420.0,13.2,119.0,10.5,138.0,1,1,1,1,1
18-B-1328,65.0,29.7,849.0,29.8,477.0,11.2,133.0,12.1,138.0,1,1,1,1,1
18-B-1439 ,117.0,19.7,354.0,22.8,509.0,7.5,175.0,6.8,182.0,1,0,1,1,0
18-B-1443,117.0,20.8,305.0,22.9,469.0,7.0,224.0,9.0,191.0,1,0,1,1,0
18-B-1447,117.0,20.4,357.0,23.2,509.0,8.0,174.0,8.2,182.0,1,0,1,1,0
18-B-1451,117.0,20.4,369.0,23.2,489.0,8.9,204.0,8.5,214.0,1,0,1,1,0
18-B-1455,117.0,20.1,40.0,23.2,495.0,7.9,242.0,7.8,208.0,1,0,1,1,0
18-B-1459,117.0,20.2,160.3,23.4,450.0,8.1,204.0,8.3,197.0,1,0,1,1,0
18-B-1463,117.0,21.9,111.6,23.1,534.0,6.8,223.0,8.0,230.0,1,0,1,1,0
18-B-1467,117.0,21.3,375.0,23.9,507.0,9.5,197.0,8.4,223.0,1,0,1,1,0
18-B-1471,117.0,21.0,380.0,23.7,424.0,8.7,212.0,9.4,224.0,1,0,1,1,0
18-B-1475,117.0,19.4,435.0,24.3,466.0,8.4,231.0,7.9,218.0,1,1,1,1,1
18-B-1479,117.0,20.6,368.0,22.9,473.0,9.7,201.0,10.5,227.0,1,0,1,1,0
18-B-1483,117.0,20.2,319.0,24.6,466.0,8.3,202.0,9.4,217.0,1,1,1,1,1
18-B-1487,117.0,19.82,519.0,22.6,453.0,9.2,186.0,9.3,206.0,1,0,1,1,0
18-B-1491,117.0,19.3,460.0,23.8,419.0,8.0,143.0,8.1,188.0,1,0,1,1,0
18-B-1495,117.0,20.3,535.0,23.9,467.0,7.6,216.0,9.0,190.0,1,0,1,1,0
18-B-1499,117.0,18.55,221.0,23.0,453.0,8.0,160.0,9.4,203.0,1,0,1,1,0
18-B-1870,117.0,18.8,395.0,22.1,406.0,8.4,204.0,8.0,194.0,1,0,1,1,0
18-B-1874,117.0,20.4,529.0,22.6,428.0,8.4,218.0,7.2,229.0,1,0,1,1,0
18-B-1878,117.0,20.2,540.0,22.2,449.0,8.0,238.0,8.1,204.0,1,0,1,1,0
18-B-1882,65.0,26.4,853.0,26.1,512.0,12.7,160.0,8.7,180.0,1,1,1,1,1
18-B-1886,66.0,23.7,586.0,30.0,516.0,13.9,119.0,10.2,132.0,1,1,1,1,1
18-B-1890,65.0,25.9,652.0,26.3,478.0,12.6,119.0,15.7,118.0,1,1,1,1,1
18-B-1894,65.0,23.9,625.0,28.6,519.0,13.2,109.0,13.0,169.0,1,1,1,1,1
18-B-1898,65.0,32.9,942.0,25.5,425.0,15.3,276.0,16.8,184.0,1,1,0,1,0
18-B-1902,65.0,23.5,690.0,32.1,801.0,12.8,251.0,14.3,188.0,1,1,1,1,1
18-B-1906,65.0,29.9,914.0,35.0,628.0,13.2,240.0,11.2,181.0,1,1,1,1,1
18-B-1910,68.0,25.0,629.0,33.9,609.0,8.9,187.0,11.0,172.0,1,1,1,1,1
18-B-1914,69.0,25.5,668.0,28.6,510.0,11.8,114.0,11.1,123.0,1,1,1,1,1
18-B-1918,65.0,25.0,622.0,29.4,553.0,11.1,131.0,10.5,109.0,1,1,1,1,1
18-B-2092,45.0,33.2,895.0,32.0,752.0,9.2,131.0,14.5,110.0,1,1,1,1,1
18-B-2096,45.0,33.4,754.0,40.7,635.0,13.4,158.0,11.5,124.0,1,1,1,1,1
18-B-2100,45.0,27.9,669.0,41.5,678.0,15.3,143.0,12.5,145.0,1,1,1,1,1
18-B-2104,45.0,33.2,742.0,33.6,536.0,7.8,272.0,9.7,133.0,1,1,1,1,1
18-B-2483,30.0,35.3,850.0,25.5,352.0,14.3,115.0,10.4,204.2,1,1,1,1,1
18-A-698,45.0,30.4,724.0,30.0,529.0,8.2,214.0,8.7,197.0,1,1,1,1,1
18-A-702,45.0,25.8,682.0,32.1,539.0,8.4,220.0,11.3,141.0,1,1,1,1,1
18-A-706,45.0,21.4,506.0,29.1,509.0,10.0,180.0,8.0,218.0,1,1,1,1,1
18-A-710,45.0,20.3,456.0,24.9,423.0,6.6,155.0,7.1,217.0,1,1,1,1,1
18-A-714,45.0,21.5,536.0,31.1,654.0,6.0,202.0,8.6,194.0,1,1,0,1,0
18-A-718,45.0,27.6,757.0,28.3,487.0,8.8,199.0,11.8,161.0,1,1,1,1,1
18-A-722,45.0,23.8,681.0,31.7,585.0,7.9,239.0,9.9,204.0,1,1,1,1,1
18-A-726,45.0,21.5,427.0,28.3,501.0,8.2,232.0,7.3,362.0,1,1,1,1,1
18-A-779,35.0,20.4,476.0,26.5,491.0,8.0,281.6,7.8,230.0,1,1,1,1,1
18-A-783,63.0,18.92,466.0,25.5,412.0,7.9,186.0,6.6,168.0,1,1,1,1,1
18-A-787,65.0,26.1,735.0,27.9,459.0,8.4,150.0,11.0,128.0,1,1,1,1,1
18-A-791,65.0,23.5,1033.0,25.1,455.0,6.5,145.0,9.0,142.0,1,1,1,1,1
18-A-795,65.0,21.9,633.0,27.4,489.0,10.6,175.0,9.9,173.0,1,1,1,1,1
19-A-19,65.0,19.6,548.0,26.3,465.0,6.6,145.0,9.7,143.0,1,1,1,1,1
19-A-23,65.0,30.6,804.0,32.3,647.0,12.5,156.0,11.9,122.0,1,1,1,1,1
19-A-27,65.0,27.9,804.0,33.5,537.0,12.0,153.0,12.0,154.0,1,1,1,1,1
19-A-31,65.0,28.1,766.0,32.4,583.0,12.8,182.0,12.2,175.0,1,1,1,1,1
19-A-35,65.0,21.4,536.0,34.5,565.0,15.0,145.0,13.7,162.0,1,1,1,1,1
19-A-39,65.0,27.0,632.0,29.4,500.0,10.6,154.0,14.1,124.0,1,1,1,1,1
19-A-43,65.0,27.8,790.0,29.7,641.0,12.7,133.0,9.0,145.0,1,1,1,1,1
19-A-47,65.0,26.4,724.0,34.1,582.0,14.1,183.0,13.3,179.0,1,1,1,1,1
19-A-51,45.0,22.9,662.0,36.2,560.0,6.9,241.0,8.1,186.0,1,1,1,1,1
19-A-55,45.0,27.2,757.0,38.4,570.0,13.9,142.0,8.4,207.0,1,1,1,1,1
19-A-59,45.0,31.3,825.0,33.0,532.0,14.6,153.0,13.6,108.0,1,1,1,1,1
19-A-63,45.0,30.4,797.0,37.2,614.0,10.2,182.0,9.1,216.0,1,1,1,1,1
19-A-82,65.0,19.1,427.0,25.1,533.0,5.3,196.0,6.5,239.0,1,1,0,1,0
19-A-86,65.0,20.1,453.0,21.7,434.0,7.0,252.0,5.3,205.0,1,0,0,1,0
19-A-90,65.0,19.36,482.0,23.7,493.0,6.0,269.0,6.5,268.0,1,0,0,1,0
19-A-94,65.0,19.9,519.0,21.2,444.0,5.6,178.0,6.5,241.0,1,0,0,1,0
19-A-98,65.0,20.0,531.0,23.7,467.0,6.1,267.0,6.0,260.0,1,0,0,1,0
19-A-102,65.0,21.6,607.0,24.5,463.0,5.2,293.0,6.6,276.0,1,1,0,1,0
19-A-106,65.0,21.4,624.0,23.1,446.0,5.5,247.0,6.7,292.0,1,0,0,1,0
19-A-110,65.0,21.4,675.0,28.4,534.0,6.7,273.0,5.6,270.6,1,1,0,1,0
19-A-114,65.0,18.97,475.0,22.5,463.0,6.5,253.0,6.1,254.0,1,0,1,1,0
19-A-118,65.0,21.2,598.0,27.7,533.0,5.4,248.0,7.1,257.0,1,1,0,1,0
19-A-173,45.0,25.5,692.0,33.0,680.0,6.8,222.0,6.8,232.0,1,1,1,1,1
19-A-177,45.0,22.3,602.0,33.6,717.0,8.7,240.0,6.8,242.0,1,1,1,1,1
19-A-181,45.0,26.0,749.0,32.9,561.0,8.5,247.0,6.6,222.0,1,1,1,1,1
19-A-185,45.0,24.7,693.0,30.8,545.0,8.4,226.0,7.0,213.0,1,1,1,1,1
19-A-189,45.0,26.2,778.0,34.0,659.0,8.0,247.0,6.9,270.0,1,1,1,1,1
19-A-193,45.0,31.3,796.0,34.5,593.0,13.1,171.0,7.7,231.0,1,1,1,1,1
19-A-229,65.0,18.8,497.0,25.5,471.0,5.9,255.0,5.7,252.0,1,1,0,1,0
19-A-233,65.0,20.0,496.0,28.5,587.0,6.1,255.0,6.4,265.0,1,1,1,1,1
19-A-237,65.0,18.9,471.0,32.2,622.0,7.7,268.0,5.4,258.0,1,1,0,1,0
19-A-241,65.0,24.1,762.0,34.2,640.0,5.6,261.0,6.2,288.0,1,1,0,1,0
19-A-245,65.0,18.43,547.0,21.9,470.0,6.4,154.0,7.6,176.0,1,0,1,1,0
19-A-249,45.0,25.8,763.0,22.3,467.0,6.7,197.0,7.3,186.0,1,0,1,1,0
19-A-253,45.0,27.0,803.0,30.2,534.0,7.9,158.0,6.1,210.0,1,1,1,1,1
19-A-257,45.0,26.3,767.0,24.6,461.0,7.0,194.0,6.7,216.0,1,1,1,1,1
19-A-261,45.0,22.7,659.0,27.0,486.0,6.3,192.0,6.1,195.0,1,1,1,1,1
19-A-265,45.0,28.8,679.0,24.0,519.0,8.6,210.0,5.9,214.0,1,0,0,1,0
19-A-360,30.0,28.9,780.0,27.7,493.0,7.8,165.0,11.3,158.0,1,1,1,1,1
19-A-364,65.0,19.8,518.0,24.9,528.0,6.5,194.0,6.1,203.0,1,1,1,1,1
19-A-368,65.0,18.6,571.0,25.9,636.0,7.3,213.0,7.3,198.0,1,1,1,1,1
19-A-372,65.0,18.7,560.0,26.2,503.0,6.7,200.0,7.9,190.0,1,1,1,1,1
19-A-376,65.0,23.6,424.0,29.7,511.0,15.4,154.0,12.7,176.0,1,1,1,1,1
19-A-380,65.0,18.8,576.0,30.6,581.0,9.9,194.0,11.7,194.0,1,1,1,1,1
19-A-384,65.0,28.4,773.0,26.7,499.0,11.8,121.0,14.8,111.0,1,1,1,1,1
19-A-411,65.0,17.5,584.0,32.5,568.0,7.3,226.0,7.3,189.0,1,1,1,1,1
19-A-416,45.0,20.1,638.0,37.0,554.0,9.2,202.0,7.0,176.0,1,1,1,1,1
19-A-420,45.0,21.9,647.0,33.3,533.0,8.0,196.0,11.2,187.0,1,1,1,1,1
19-A-424,45.0,25.8,644.0,28.9,531.0,8.2,205.0,8.1,127.0,1,1,1,1,1
19-A-513,65.0,18.4,495.0,21.2,501.0,6.1,246.9,5.1,227.6,1,0,0,1,0
19-A-517,65.0,20.0,505.0,21.3,437.0,5.1,272.0,5.2,254.0,1,0,0,1,0
19-A-521,65.0,19.0,594.0,21.2,436.0,6.5,267.0,5.7,210.0,1,0,0,1,0
19-A-525,65.0,20.0,476.0,22.0,480.0,6.7,218.0,5.2,258.0,1,0,0,1,0
19-A-529,65.0,17.5,420.0,21.3,467.0,6.5,240.0,6.5,228.0,1,0,1,1,0
19-A-650,65.0,29.0,784.0,24.1,453.0,6.7,274.0,7.4,228.0,1,1,1,1,1
19-A-654,65.0,28.9,751.0,28.8,589.0,7.1,227.0,12.4,155.0,1,1,1,1,1
19-A-658,65.0,24.6,705.0,25.7,467.0,10.1,159.0,9.3,211.0,1,1,1,1,1
19-A-662,65.0,29.7,789.0,24.9,430.0,10.0,151.0,11.9,166.0,1,1,1,1,1
19-A-666,65.0,18.9,555.0,25.0,477.0,6.1,272.0,6.4,247.0,1,1,1,1,1
19-A-670,65.0,18.2,518.0,24.2,413.0,12.0,206.0,8.1,247.0,1,1,1,1,1
19-A-674,65.0,29.0,878.0,31.7,528.0,12.1,175.0,13.1,152.0,1,1,1,1,1
19-A-678,65.0,18.8,540.0,33.4,555.0,10.7,197.0,7.4,245.0,1,1,1,1,1
19-A-682,65.0,28.7,954.0,30.9,547.0,12.9,185.0,9.7,204.0,1,1,1,1,1
19-A-686,65.0,28.0,819.0,24.5,508.0,7.6,159.0,11.1,135.0,1,1,1,1,1
19-A-690,65.0,21.2,402.0,26.9,408.0,13.3,165.0,10.9,180.0,1,1,1,1,1
19-A-733,65.0,19.8,539.0,22.9,445.0,6.8,246.0,6.7,218.0,1,0,1,1,0
19-A-737,65.0,19.7,490.0,24.7,391.0,6.2,243.0,6.8,252.0,1,1,1,1,1
19-A-741,65.0,19.0,551.0,27.5,511.0,8.2,195.0,7.3,225.0,1,1,1,1,1
19-A-745,65.0,19.07,684.0,27.0,460.0,7.6,197.0,7.4,206.0,1,1,1,1,1
19-A-749,65.0,19.3,329.0,24.0,402.0,9.1,205.0,9.5,170.0,1,0,1,1,0
19-A-753,65.0,19.38,603.0,25.9,430.0,8.4,190.0,6.4,231.0,1,1,1,1,1
19-A-758,65.0,19.12,580.0,24.8,459.0,4.9,230.0,6.5,186.0,1,1,0,1,0
19-A-762,65.0,19.59,700.0,23.2,374.0,5.5,272.9,5.2,294.0,1,0,0,1,0
19-A-766,65.0,28.0,772.0,21.5,432.0,6.7,249.0,7.1,190.0,1,0,1,1,0
19-A-770,65.0,25.0,681.0,26.5,482.0,6.1,200.0,6.1,193.0,1,1,1,1,1
19-A-774,65.0,19.78,570.0,21.7,570.0,5.2,228.0,5.8,223.0,1,0,0,1,0
19-A-778,65.0,20.0,540.0,20.9,574.0,5.7,269.0,5.8,222.0,1,0,0,1,0
19-A-782,65.0,22.7,621.0,21.6,495.0,5.5,245.0,4.5,251.0,1,0,0,1,0
19-A-786,65.0,19.3,504.0,22.9,433.0,6.7,215.0,5.7,191.0,1,0,0,1,0
20-A-33,65.0,20.8,919.0,28.5,506.0,6.9,232.0,10.8,166.0,1,1,1,1,1
20-A-39,65.0,24.5,622.0,28.8,456.0,5.4,224.0,10.2,156.0,1,1,0,1,0
20-A-43,65.0,18.9,549.0,27.4,417.0,6.5,191.0,7.6,194.0,1,1,1,1,1
20-A-47,65.0,17.66,528.0,28.1,569.0,9.9,205.0,6.7,241.0,1,1,1,1,1
20-A-51,65.0,19.25,543.0,27.6,524.0,5.3,282.0,6.8,281.0,1,1,0,1,0
20-A-55,65.0,23.2,666.0,27.0,511.0,7.5,213.0,9.5,212.0,1,1,1,1,1
20-A-59,65.0,17.89,550.0,25.1,468.0,14.2,147.0,8.0,205.0,1,1,1,1,1
20-A-63,65.0,21.1,547.0,22.0,497.0,9.3,197.0,5.6,287.0,1,0,0,1,0
20-A-67,65.0,18.5,513.0,23.0,464.0,6.6,240.0,5.3,246.0,1,0,0,1,0
20-A-71,65.0,18.1,537.0,22.0,452.0,5.5,217.0,8.1,185.0,1,0,0,1,0
20-A-75,45.0,17.5,556.0,23.9,472.0,6.5,211.0,6.2,208.0,1,0,1,1,0
20-A-79,45.0,17.1,363.0,25.9,481.0,6.7,198.0,9.0,197.0,1,1,1,1,1
20-A-83,45.0,28.4,729.0,22.5,458.0,7.4,206.0,6.6,220.0,1,0,1,1,0
20-A-126,45.0,26.3,758.0,31.1,522.0,7.6,228.0,8.1,223.0,1,1,1,1,1
20-A-130,45.0,18.6,533.0,24.9,510.0,7.2,224.0,6.7,229.0,1,1,1,1,1
20-A-134,45.0,19.2,637.0,29.6,487.0,7.9,198.0,7.7,209.0,1,1,1,1,1
20-A-138,45.0,27.1,699.0,26.5,475.0,6.6,207.0,7.7,259.0,1,1,1,1,1
20-A-142,65.0,17.7,525.0,29.9,562.0,5.8,295.0,7.7,248.0,1,1,0,1,0
20-A-146,65.0,19.5,568.0,23.1,437.0,5.4,263.0,5.6,202.0,1,0,0,1,0
20-A-150,65.0,18.5,464.0,24.1,434.0,5.4,290.0,6.0,237.0,1,1,0,1,0
20-A-155,65.0,19.3,473.0,24.1,439.0,4.9,268.0,5.4,258.0,1,1,0,1,0
20-A-231,65.0,21.7,545.0,27.8,518.0,4.7,256.0,6.9,210.0,1,1,0,1,0
20-A-235,65.0,23.5,606.0,28.8,510.0,5.4,218.0,5.9,235.0,1,1,0,1,0
20-A-239,65.0,19.3,497.0,31.3,522.0,10.7,149.0,7.9,190.0,1,1,1,1,1
20-A-243,65.0,22.6,624.0,36.5,604.0,9.4,177.0,6.8,238.0,1,1,1,1,1
20-A-302,65.0,18.87,557.0,30.1,553.0,6.8,259.0,5.9,242.0,1,1,0,1,0
20-A-309,65.0,18.42,511.0,27.5,513.0,6.8,240.0,6.3,217.0,1,1,1,1,1
20-A-313,65.0,24.3,720.0,27.9,503.0,7.2,209.0,6.2,215.0,1,1,1,1,1
20-A-317,65.0,18.3,522.0,28.7,590.0,6.3,250.0,5.8,240.0,1,1,0,1,0
20-A-321,65.0,19.3,566.0,24.8,486.0,6.2,239.0,5.9,213.0,1,1,0,1,0
20-A-325,65.0,20.5,455.0,28.7,580.0,6.2,216.0,9.1,177.0,1,1,1,1,1
20-A-329,65.0,25.1,706.0,32.6,585.0,10.9,144.0,6.6,216.0,1,1,1,1,1
20-A-333,65.0,24.4,682.0,30.8,555.0,6.5,228.0,6.5,237.0,1,1,1,1,1
20-A-441,65.0,28.3,720.0,29.7,512.0,9.0,193.0,8.5,200.0,1,1,1,1,1
20-A-445,65.0,29.4,691.0,31.6,548.0,11.0,169.0,9.3,192.0,1,1,1,1,1
20-A-449,65.0,30.6,754.0,29.5,519.0,8.1,208.0,10.2,148.0,1,1,1,1,1
20-A-453,65.0,29.9,769.0,30.4,522.0,9.4,173.0,10.7,194.0,1,1,1,1,1
20-A-457,65.0,28.5,758.0,33.7,549.0,6.5,215.0,11.3,190.0,1,1,1,1,1
20-A-461,65.0,28.0,733.0,32.9,523.0,8.3,160.0,7.5,196.0,1,1,1,1,1
20-A-465,65.0,28.5,743.0,29.3,498.0,11.0,172.0,9.2,157.0,1,1,1,1,1
20-A-469,65.0,28.1,758.0,285.1,501.0,8.9,179.0,8.3,178.0,1,1,1,1,1
20-A-473,65.0,23.9,601.0,28.9,497.0,8.6,203.0,10.8,191.0,1,1,1,1,1
20-A-477,65.0,21.9,508.0,23.1,444.0,8.2186,186.0,7.7,260.0,1,0,1,1,0
20-A-481,65.0,20.4,458.0,31.0,520.0,9.2,177.0,11.5,134.0,1,1,1,1,1
21-A-11,65.0,30.0,532.0,30.0,561.0,7.8,192.0,11.4,152.0,1,1,1,1,1
21-A-15,65.0,26.2,665.0,30.1,541.0,11.1,148.0,11.6,158.0,1,1,1,1,1
21-A-19,65.0,28.0,773.0,29.1,512.0,10.0,165.0,9.5,172.0,1,1,1,1,1
21-A-23,65.0,25.8,685.0,29.8,522.0,13.2,135.0,10.7,140.0,1,1,1,1,1
21-A-69,65.0,25.1,540.0,26.7,425.0,11.2,154.0,8.2,195.0,1,1,1,1,1
21-A-73,65.0,20.1,569.0,24.4,386.0,11.2,178.0,8.9,207.0,1,1,1,1,1
21-A-77,65.0,22.3,622.0,24.8,428.0,11.5,185.0,8.1,208.0,1,1,1,1,1
21-A-128,65.0,18.4,456.0,30.5,531.0,6.7,262.0,6.0,228.0,1,1,0,1,0
21-A-132,65.0,18.4,481.0,27.8,483.0,5.3,235.0,5.2,246.0,1,1,0,1,0
21-A-136,65.0,19.7,462.0,25.6,451.0,5.6,220.0,6.5,228.0,1,1,0,1,0
21-A-140,65.0,19.3,439.0,27.8,474.0,5.4,242.0,5.5,240.0,1,1,0,1,0
21-A-146,65.0,19.9,417.0,28.2,560.0,5.8,272.0,6.0,248.0,1,1,0,1,0
21-A-151,65.0,18.8,431.0,24.7,377.0,5.4,226.0,5.5,221.0,1,1,0,1,0
21-A-155,65.0,19.8,435.0,22.5,370.0,5.2,258.0,5.6,245.0,1,0,0,1,0
21-A-479,65.0,26.6,744.0,26.9,497.0,9.4,179.0,13.8,177.6,1,1,1,1,1
21-A-483,65.0,21.1,625.0,28.1,545.0,12.2,175.0,14.1,185.0,1,1,1,1,1
21-A-487,65.0,21.3,600.0,27.4,552.0,14.9,189.0,13.4,195.0,1,1,1,1,1
21-A-491,65.0,18.9,590.0,27.6,507.0,12.6,196.3,12.2,191.2,1,1,1,1,1
21-A-495,65.0,22.6,709.0,30.9,488.0,18.7,155.3,12.8,180.1,1,1,0,1,0
21-A-499,65.0,21.2,650.0,24.9,474.0,16.0,173.0,14.5,178.0,1,1,0,1,0
21-A-503,65.0,24.0,759.0,24.7,397.0,17.5,148.0,21.3,174.0,1,1,0,1,0
21-A-507,65.0,21.2,740.0,28.5,524.0,13.2,179.0,18.8,164.0,1,1,0,1,0
21-A-511,65.0,21.7,659.0,30.0,595.0,16.1,196.0,18.2,185.0,1,1,0,1,0
21-A-515,65.0,24.0,815.0,30.9,616.0,15.8,186.0,19.8,1920.0,1,1,0,1,0
21-A-577,65.0,18.7,524.0,27.1,454.0,15.5,171.0,13.7,141.0,1,1,1,1,1
21-A-581,65.0,20.1,478.0,21.6,421.0,10.6,179.0,21.7,186.7,1,0,0,1,0
21-A-585,65.0,19.7,506.0,26.7,438.0,20.0,156.0,23.7,150.0,1,1,0,1,0
21-A-589,65.0,23.6,665.0,29.6,499.0,19.7,150.0,20.9,156.0,1,1,0,1,0
21-A-593,65.0,23.0,725.0,30.9,499.0,17.3,147.0,16.9,140.4,1,1,0,1,0
22-A-1,65.0,39.2,536.0,29.6,524.0,18.7,155.0,15.8,145.0,1,1,0,1,0
22-A-5,65.0,26.6,802.0,32.9,587.0,17.8,198.7,18.5,183.5,1,1,0,1,0
22-A-9,65.0,26.8,848.0,34.4,613.0,21.0,208.5,21.1,213.5,1,1,0,1,0
22-A-73,65.0,20.7,698.0,27.5,560.0,8.9,233.0,11.6,228.0,1,1,1,1,1
22-A-82,65.0,23.4,778.0,28.6,478.0,13.3,157.0,20.2,172.0,1,1,0,1,0
22-A-86,65.0,18.9,632.0,27.8,508.0,12.6,172.0,13.4,152.0,1,1,1,1,1
22-A-90,65.0,18.1,595.0,28.3,517.0,10.5,189.0,9.9,188.0,1,1,1,1,1
22-A-94,65.0,26.8,821.0,30.0,578.0,15.7,194.0,17.2,198.0,1,1,0,1,0